SpectraSuite Data File
++++++++++++++++++++++++++++++++++++
Date: Thu Apr 16 19:48:14 BST 2015
User: mpfc3
Dark Spectrum Present: Yes
Reference Spectrum Present: No
Number of Sampled Component Spectra: 1
Spectrometers: USB2E3636
Integration Time (usec): 30000 (USB2E3636)
Spectra Averaged: 100 (USB2E3636)
Boxcar Smoothing: 0 (USB2E3636)
Correct for Electrical Dark: No (USB2E3636)
Strobe/Lamp Enabled: No (USB2E3636)
Correct for Detector Non-linearity: No (USB2E3636)
Correct for Stray Light: No (USB2E3636)
Number of Pixels in Processed Spectrum: 2048
>>>>>Begin Processed Spectral Data<<<<<
180.28	0.00
180.65	163.91
181.02	164.99
181.39	165.59
181.77	166.86
182.14	168.07
182.51	168.36
182.88	168.68
183.25	169.10
183.63	169.57
184.00	169.81
184.37	171.45
184.74	170.20
185.11	170.52
185.49	170.07
185.86	169.97
186.23	170.17
186.60	170.32
186.97	170.44
187.35	170.55
187.72	169.74
188.09	170.24
188.46	170.26
188.83	169.72
189.20	175.68
189.58	191.38
189.95	191.23
190.32	191.18
190.69	191.35
191.06	191.10
191.43	191.07
191.81	191.13
192.18	191.08
192.55	191.10
192.92	190.85
193.29	191.86
193.66	192.17
194.03	191.62
194.41	191.22
194.78	191.66
195.15	191.50
195.52	191.16
195.89	192.04
196.26	191.49
196.63	191.93
197.01	191.56
197.38	191.91
197.75	191.81
198.12	191.93
198.49	191.77
198.86	191.97
199.23	192.29
199.60	191.97
199.98	191.79
200.35	192.11
200.72	192.25
201.09	192.27
201.46	192.52
201.83	192.57
202.20	191.64
202.57	192.43
202.94	192.33
203.31	192.05
203.69	192.46
204.06	192.59
204.43	192.78
204.80	192.08
205.17	192.41
205.54	191.81
205.91	192.00
206.28	192.40
206.65	192.55
207.02	192.26
207.39	191.48
207.76	191.98
208.14	191.75
208.51	191.92
208.88	192.26
209.25	191.57
209.62	191.64
209.99	191.81
210.36	192.18
210.73	191.75
211.10	192.25
211.47	191.95
211.84	191.16
212.21	191.83
212.58	191.30
212.95	191.65
213.32	191.43
213.69	191.18
214.06	191.13
214.43	191.35
214.80	191.03
215.17	191.50
215.55	191.30
215.92	191.46
216.29	191.18
216.66	191.42
217.03	191.62
217.40	191.79
217.77	191.18
218.14	191.08
218.51	191.43
218.88	191.69
219.25	191.11
219.62	190.94
219.99	191.16
220.36	191.12
220.73	191.66
221.10	191.20
221.47	191.12
221.84	191.10
222.21	191.74
222.58	190.69
222.95	190.90
223.32	191.08
223.69	189.95
224.06	191.13
224.43	190.93
224.80	190.79
225.17	191.00
225.54	191.16
225.91	190.56
226.27	197.78
226.64	191.05
227.01	190.84
227.38	190.65
227.75	190.09
228.12	190.52
228.49	190.61
228.86	190.15
229.23	190.22
229.60	190.44
229.97	190.16
230.34	190.62
230.71	190.57
231.08	191.45
231.45	189.66
231.82	190.15
232.19	190.24
232.56	190.21
232.93	189.97
233.30	190.11
233.66	189.75
234.03	190.21
234.40	189.75
234.77	189.35
235.14	189.90
235.51	189.32
235.88	189.65
236.25	190.17
236.62	190.27
236.99	189.54
237.36	190.00
237.73	189.62
238.09	189.72
238.46	189.51
238.83	190.23
239.20	189.78
239.57	189.69
239.94	189.54
240.31	189.12
240.68	189.71
241.05	189.08
241.41	189.94
241.78	189.43
242.15	189.22
242.52	189.58
242.89	189.30
243.26	189.10
243.63	189.14
244.00	189.06
244.36	188.92
244.73	189.24
245.10	189.56
245.47	189.14
245.84	188.79
246.21	189.47
246.58	189.44
246.94	190.14
247.31	188.83
247.68	188.81
248.05	188.63
248.42	189.04
248.79	189.40
249.15	188.94
249.52	188.94
249.89	188.99
250.26	189.62
250.63	188.83
251.00	189.18
251.36	189.32
251.73	188.30
252.10	189.41
252.47	188.56
252.84	188.88
253.20	189.19
253.57	188.39
253.94	188.65
254.31	188.30
254.68	188.46
255.05	188.27
255.41	188.61
255.78	189.03
256.15	188.20
256.52	189.05
256.88	188.58
257.25	188.85
257.62	188.62
257.99	188.46
258.36	189.25
258.72	188.55
259.09	188.63
259.46	188.58
259.83	188.42
260.19	188.01
260.56	188.66
260.93	187.82
261.30	188.78
261.67	188.94
262.03	188.74
262.40	188.53
262.77	188.16
263.14	188.21
263.50	188.08
263.87	188.23
264.24	188.28
264.61	188.22
264.97	188.59
265.34	188.51
265.71	188.54
266.07	188.26
266.44	188.25
266.81	188.04
267.18	188.42
267.54	188.88
267.91	188.59
268.28	188.94
268.64	188.40
269.01	188.41
269.38	187.87
269.75	188.48
270.11	188.17
270.48	188.19
270.85	188.12
271.21	188.07
271.58	188.65
271.95	188.06
272.32	188.81
272.68	188.39
273.05	188.19
273.42	188.06
273.78	187.85
274.15	188.41
274.52	188.20
274.88	188.47
275.25	188.08
275.62	187.80
275.98	188.59
276.35	187.94
276.72	188.65
277.08	188.47
277.45	188.14
277.82	188.23
278.18	188.25
278.55	187.96
278.92	188.42
279.28	188.33
279.65	187.81
280.01	188.56
280.38	187.54
280.75	187.81
281.11	188.67
281.48	188.06
281.85	187.78
282.21	188.07
282.58	188.57
282.95	188.57
283.31	187.96
283.68	188.23
284.04	188.35
284.41	188.11
284.78	188.20
285.14	190.45
285.51	189.25
285.87	187.97
286.24	187.95
286.61	188.26
286.97	188.00
287.34	187.95
287.70	188.38
288.07	188.01
288.44	188.56
288.80	188.21
289.17	187.74
289.53	188.10
289.90	188.69
290.26	189.13
290.63	188.36
291.00	187.89
291.36	188.37
291.73	187.69
292.09	188.15
292.46	188.16
292.82	187.94
293.19	188.21
293.56	188.30
293.92	189.03
294.29	188.40
294.65	188.07
295.02	187.82
295.38	188.12
295.75	188.71
296.11	188.22
296.48	188.42
296.84	188.03
297.21	188.12
297.57	188.72
297.94	189.05
298.30	188.48
298.67	188.04
299.04	188.05
299.40	188.17
299.77	188.33
300.13	188.14
300.50	189.03
300.86	188.54
301.23	188.59
301.59	188.12
301.96	189.32
302.32	188.76
302.69	188.41
303.05	188.92
303.42	188.85
303.78	189.17
304.14	188.95
304.51	189.16
304.87	189.14
305.24	189.29
305.60	189.71
305.97	189.11
306.33	189.34
306.70	188.95
307.06	188.65
307.43	190.38
307.79	188.95
308.16	189.20
308.52	188.86
308.88	189.31
309.25	188.99
309.61	189.13
309.98	189.44
310.34	189.66
310.71	189.03
311.07	189.43
311.44	189.31
311.80	189.62
312.16	189.78
312.53	189.26
312.89	190.11
313.26	189.73
313.62	189.98
313.98	190.30
314.35	189.84
314.71	190.51
315.08	190.08
315.44	191.02
315.80	190.31
316.17	190.30
316.53	192.03
316.90	190.50
317.26	190.80
317.62	190.55
317.99	190.74
318.35	191.58
318.72	191.33
319.08	191.54
319.44	191.78
319.81	191.61
320.17	191.91
320.53	191.87
320.90	191.59
321.26	192.23
321.62	192.05
321.99	192.07
322.35	192.62
322.72	192.51
323.08	193.40
323.44	193.03
323.81	193.06
324.17	192.64
324.53	192.67
324.90	193.11
325.26	193.21
325.62	192.95
325.99	192.74
326.35	194.33
326.71	193.94
327.08	194.67
327.44	194.86
327.80	194.54
328.16	195.98
328.53	193.57
328.89	193.01
329.25	194.86
329.62	199.35
329.98	199.77
330.34	197.66
330.71	196.58
331.07	197.03
331.43	197.43
331.79	198.62
332.16	198.78
332.52	198.56
332.88	198.94
333.24	198.71
333.61	198.84
333.97	199.75
334.33	200.81
334.70	199.90
335.06	200.43
335.42	200.82
335.78	202.55
336.15	201.70
336.51	201.72
336.87	202.61
337.23	202.97
337.60	203.41
337.96	203.33
338.32	204.04
338.68	204.28
339.04	204.15
339.41	204.58
339.77	205.47
340.13	205.58
340.49	205.91
340.86	205.80
341.22	206.70
341.58	207.24
341.94	207.66
342.30	207.82
342.67	208.38
343.03	208.81
343.39	209.33
343.75	209.95
344.11	210.44
344.48	211.05
344.84	211.10
345.20	211.74
345.56	211.78
345.92	212.70
346.28	213.49
346.65	215.13
347.01	214.08
347.37	214.88
347.73	215.68
348.09	215.92
348.45	216.14
348.82	217.57
349.18	217.32
349.54	218.71
349.90	218.67
350.26	219.64
350.62	219.79
350.98	221.26
351.35	221.44
351.71	221.90
352.07	221.81
352.43	223.05
352.79	223.77
353.15	224.31
353.51	225.48
353.87	225.97
354.24	226.09
354.60	227.04
354.96	227.17
355.32	228.11
355.68	229.11
356.04	229.70
356.40	230.17
356.76	231.06
357.12	232.26
357.48	233.30
357.85	233.13
358.21	233.83
358.57	235.45
358.93	235.28
359.29	236.29
359.65	237.61
360.01	238.02
360.37	238.90
360.73	240.33
361.09	240.29
361.45	241.70
361.81	242.08
362.17	243.58
362.53	243.76
362.89	244.78
363.25	246.11
363.62	246.94
363.98	247.47
364.34	248.75
364.70	249.29
365.06	251.01
365.42	251.41
365.78	252.50
366.14	253.04
366.50	254.52
366.86	255.49
367.22	255.96
367.58	257.20
367.94	257.54
368.30	259.59
368.66	259.91
369.02	262.22
369.38	262.02
369.74	263.19
370.10	264.54
370.46	267.41
370.82	266.85
371.18	267.19
371.54	269.09
371.90	270.19
372.26	271.61
372.62	273.59
372.98	273.89
373.33	274.26
373.69	275.91
374.05	277.70
374.41	277.66
374.77	280.08
375.13	279.89
375.49	282.54
375.85	282.53
376.21	284.67
376.57	284.63
376.93	287.77
377.29	288.47
377.65	289.98
378.01	291.54
378.37	293.68
378.73	294.10
379.08	296.64
379.44	296.44
379.80	297.78
380.16	298.91
380.52	300.69
380.88	302.85
381.24	302.21
381.60	306.19
381.96	307.95
382.32	308.96
382.67	310.03
383.03	309.73
383.39	311.93
383.75	312.88
384.11	314.60
384.47	317.03
384.83	319.40
385.19	318.30
385.54	319.75
385.90	321.19
386.26	322.39
386.62	325.09
386.98	328.12
387.34	328.50
387.70	330.23
388.05	329.30
388.41	333.85
388.77	335.57
389.13	337.40
389.49	337.48
389.85	340.66
390.20	341.89
390.56	343.02
390.92	347.60
391.28	345.59
391.64	349.96
391.99	350.04
392.35	350.65
392.71	355.64
393.07	355.33
393.43	355.21
393.78	357.85
394.14	361.51
394.50	364.13
394.86	362.64
395.22	365.91
395.57	366.46
395.93	368.67
396.29	373.14
396.65	374.67
397.00	376.39
397.36	378.19
397.72	377.30
398.08	380.87
398.43	383.64
398.79	385.48
399.15	387.06
399.51	393.22
399.86	392.06
400.22	388.91
400.58	395.75
400.94	398.22
401.29	402.23
401.65	403.74
402.01	405.15
402.37	402.82
402.72	411.56
403.08	415.65
403.44	414.93
403.79	413.86
404.15	416.58
404.51	417.88
404.86	421.66
405.22	428.77
405.58	427.40
405.94	430.99
406.29	433.28
406.65	432.48
407.01	434.74
407.36	438.12
407.72	440.15
408.08	440.91
408.43	446.01
408.79	447.45
409.15	448.94
409.50	449.73
409.86	447.93
410.22	453.98
410.57	457.96
410.93	459.55
411.29	469.94
411.64	461.41
412.00	472.46
412.35	475.31
412.71	473.04
413.07	478.92
413.42	477.02
413.78	483.93
414.14	481.70
414.49	488.48
414.85	488.79
415.20	499.61
415.56	502.58
415.92	497.58
416.27	500.04
416.63	507.83
416.98	509.26
417.34	514.42
417.70	519.15
418.05	516.41
418.41	520.15
418.76	530.83
419.12	521.09
419.47	532.91
419.83	524.99
420.19	541.85
420.54	540.76
420.90	538.90
421.25	542.04
421.61	548.38
421.96	540.76
422.32	560.43
422.67	559.94
423.03	558.00
423.39	565.82
423.74	570.39
424.10	571.13
424.45	574.07
424.81	570.42
425.16	576.96
425.52	582.11
425.87	581.40
426.23	590.72
426.58	586.59
426.94	597.05
427.29	613.09
427.65	606.46
428.00	602.78
428.36	611.18
428.71	612.53
429.07	611.37
429.42	618.17
429.78	622.46
430.13	634.50
430.49	626.35
430.84	637.06
431.19	640.43
431.55	634.08
431.90	645.63
432.26	646.42
432.61	654.99
432.97	656.12
433.32	655.08
433.68	664.72
434.03	662.95
434.39	672.30
434.74	669.98
435.09	678.86
435.45	677.70
435.80	693.51
436.16	680.38
436.51	689.72
436.86	696.59
437.22	701.21
437.57	716.68
437.93	720.72
438.28	720.89
438.63	720.11
438.99	726.09
439.34	741.98
439.70	723.92
440.05	721.83
440.40	749.06
440.76	747.80
441.11	751.95
441.47	782.39
441.82	772.79
442.17	773.04
442.53	776.50
442.88	775.44
443.23	784.00
443.59	775.31
443.94	792.50
444.29	789.93
444.65	799.95
445.00	799.01
445.35	800.12
445.71	808.18
446.06	818.24
446.41	803.86
446.77	812.26
447.12	829.18
447.47	822.03
447.83	846.07
448.18	838.78
448.53	820.27
448.89	836.30
449.24	841.56
449.59	872.76
449.94	855.53
450.30	845.01
450.65	854.03
451.00	891.42
451.36	884.48
451.71	874.70
452.06	885.64
452.41	896.99
452.77	891.36
453.12	918.71
453.47	917.06
453.82	928.21
454.18	883.65
454.53	920.32
454.88	915.77
455.23	939.93
455.59	912.60
455.94	939.01
456.29	953.11
456.64	932.02
457.00	930.40
457.35	964.19
457.70	942.29
458.05	973.51
458.40	990.76
458.76	1001.19
459.11	996.57
459.46	979.84
459.81	979.27
460.16	988.64
460.52	1031.44
460.87	1011.22
461.22	1023.76
461.57	1035.73
461.92	1015.34
462.28	1047.54
462.63	1075.50
462.98	1066.11
463.33	1079.84
463.68	1090.92
464.03	1077.14
464.38	1104.03
464.74	1088.92
465.09	1100.32
465.44	1137.80
465.79	1143.90
466.14	1126.82
466.49	1162.04
466.84	1167.63
467.20	1188.43
467.55	1200.96
467.90	1206.96
468.25	1210.11
468.60	1239.93
468.95	1213.30
469.30	1231.14
469.65	1255.51
470.00	1266.79
470.36	1289.74
470.71	1329.86
471.06	1328.33
471.41	1312.26
471.76	1347.64
472.11	1356.98
472.46	1374.88
472.81	1386.01
473.16	1414.46
473.51	1411.96
473.86	1436.61
474.21	1452.56
474.56	1484.17
474.91	1495.37
475.26	1500.18
475.62	1518.97
475.97	1562.48
476.32	1542.00
476.67	1560.70
477.02	1598.02
477.37	1619.77
477.72	1648.49
478.07	1655.09
478.42	1657.73
478.77	1686.31
479.12	1737.37
479.47	1732.26
479.82	1745.79
480.17	1787.13
480.52	1829.43
480.87	1825.92
481.22	1824.02
481.57	1853.70
481.92	1837.20
482.27	1889.70
482.62	1928.97
482.97	1928.01
483.32	1950.31
483.67	1950.19
484.02	1970.51
484.36	1984.00
484.71	2021.05
485.06	2036.15
485.41	2045.80
485.76	2085.69
486.11	2081.54
486.46	2095.77
486.81	2110.40
487.16	2119.18
487.51	2146.37
487.86	2170.33
488.21	2189.33
488.56	2208.61
488.91	2211.58
489.25	2239.74
489.60	2254.01
489.95	2260.17
490.30	2286.46
490.65	2297.86
491.00	2320.81
491.35	2325.52
491.70	2319.46
492.05	2353.89
492.39	2377.92
492.74	2383.86
493.09	2407.81
493.44	2413.03
493.79	2426.51
494.14	2447.23
494.49	2450.71
494.83	2461.64
495.18	2491.41
495.53	2501.82
495.88	2532.74
496.23	2550.67
496.58	2545.05
496.92	2558.20
497.27	2584.20
497.62	2603.07
497.97	2596.96
498.32	2623.41
498.67	2630.00
499.01	2661.12
499.36	2670.10
499.71	2680.45
500.06	2688.17
500.41	2717.93
500.75	2730.62
501.10	2737.60
501.45	2753.22
501.80	2765.35
502.14	2777.34
502.49	2790.96
502.84	2794.50
503.19	2824.03
503.53	2824.56
503.88	2845.56
504.23	2852.24
504.58	2862.20
504.92	2878.18
505.27	2889.04
505.62	2901.97
505.97	2907.34
506.31	2912.07
506.66	2940.00
507.01	2945.72
507.36	2958.30
507.70	2962.37
508.05	2978.74
508.40	2986.00
508.74	2994.76
509.09	2996.56
509.44	2997.16
509.79	3011.87
510.13	3022.22
510.48	3025.64
510.83	3041.11
511.17	3037.48
511.52	3047.37
511.87	3060.01
512.21	3063.68
512.56	3065.07
512.91	3072.09
513.25	3092.39
513.60	3078.77
513.95	3096.30
514.29	3091.26
514.64	3105.50
514.98	3104.29
515.33	3104.10
515.68	3111.79
516.02	3125.90
516.37	3114.83
516.72	3114.63
517.06	3143.20
517.41	3148.50
517.75	3130.88
518.10	3146.59
518.45	3144.19
518.79	3156.08
519.14	3164.00
519.48	3164.88
519.83	3166.42
520.18	3156.90
520.52	3170.44
520.87	3187.44
521.21	3178.74
521.56	3176.51
521.90	3181.82
522.25	3184.81
522.60	3182.85
522.94	3202.10
523.29	3210.13
523.63	3193.79
523.98	3193.46
524.32	3209.78
524.67	3209.39
525.01	3196.32
525.36	3201.05
525.70	3221.30
526.05	3237.04
526.39	3202.94
526.74	3220.77
527.08	3221.67
527.43	3226.97
527.77	3224.11
528.12	3236.72
528.46	3235.74
528.81	3244.28
529.15	3246.85
529.50	3263.56
529.84	3254.51
530.19	3262.23
530.53	3252.80
530.88	3247.32
531.22	3274.92
531.57	3268.85
531.91	3274.26
532.26	3275.19
532.60	3279.08
532.94	3278.33
533.29	3290.58
533.63	3298.22
533.98	3296.13
534.32	3308.62
534.67	3315.13
535.01	3309.18
535.35	3317.10
535.70	3311.24
536.04	3314.66
536.39	3329.93
536.73	3328.01
537.07	3340.15
537.42	3347.47
537.76	3354.27
538.11	3340.50
538.45	3354.14
538.79	3360.89
539.14	3371.72
539.48	3359.79
539.82	3370.24
540.17	3395.50
540.51	3397.02
540.85	3387.36
541.20	3393.15
541.54	3395.32
541.89	3397.36
542.23	3401.11
542.57	3420.14
542.92	3424.37
543.26	3425.19
543.60	3457.85
543.94	3453.00
544.29	3452.16
544.63	3441.73
544.97	3465.04
545.32	3475.13
545.66	3474.83
546.00	3481.01
546.35	3488.33
546.69	3503.34
547.03	3494.19
547.37	3499.49
547.72	3498.42
548.06	3523.09
548.40	3519.38
548.75	3526.10
549.09	3532.98
549.43	3545.56
549.77	3549.39
550.12	3538.39
550.46	3568.45
550.80	3549.90
551.14	3576.82
551.49	3587.21
551.83	3605.79
552.17	3591.22
552.51	3587.76
552.85	3594.90
553.20	3589.11
553.54	3601.15
553.88	3612.38
554.22	3605.40
554.56	3650.46
554.91	3635.15
555.25	3628.03
555.59	3649.72
555.93	3646.52
556.27	3643.09
556.62	3652.08
556.96	3662.71
557.30	3651.07
557.64	3653.48
557.98	3649.04
558.32	3670.18
558.67	3670.91
559.01	3673.51
559.35	3666.24
559.69	3673.42
560.03	3691.89
560.37	3699.35
560.71	3681.62
561.05	3691.75
561.40	3675.78
561.74	3700.99
562.08	3687.95
562.42	3683.17
562.76	3710.69
563.10	3700.17
563.44	3701.89
563.78	3706.44
564.12	3714.37
564.46	3708.78
564.81	3707.04
565.15	3711.34
565.49	3694.92
565.83	3709.38
566.17	3701.09
566.51	3695.27
566.85	3696.71
567.19	3703.48
567.53	3704.34
567.87	3712.74
568.21	3711.84
568.55	3695.75
568.89	3704.19
569.23	3707.99
569.57	3701.95
569.91	3699.45
570.25	3689.50
570.59	3708.50
570.93	3705.03
571.27	3696.74
571.61	3691.35
571.95	3698.64
572.29	3697.08
572.63	3712.67
572.97	3708.03
573.31	3697.94
573.65	3691.82
573.99	3692.33
574.33	3688.51
574.67	3698.27
575.01	3679.55
575.35	3688.34
575.69	3694.23
576.03	3702.29
576.37	3699.21
576.71	3702.98
577.05	3686.48
577.39	3681.80
577.73	3694.07
578.06	3700.51
578.40	3697.25
578.74	3681.67
579.08	3689.62
579.42	3698.92
579.76	3683.85
580.10	3695.34
580.44	3695.88
580.78	3696.23
581.12	3685.59
581.45	3701.74
581.79	3704.57
582.13	3679.32
582.47	3703.92
582.81	3693.22
583.15	3708.42
583.49	3695.97
583.83	3694.44
584.16	3697.43
584.50	3715.50
584.84	3710.82
585.18	3696.59
585.52	3693.04
585.86	3705.90
586.19	3706.04
586.53	3705.45
586.87	3702.88
587.21	3687.07
587.55	3723.48
587.88	3721.83
588.22	3713.10
588.56	3714.98
588.90	3713.34
589.24	3720.01
589.57	3716.55
589.91	3730.07
590.25	3717.66
590.59	3713.75
590.92	3730.31
591.26	3736.66
591.60	3730.22
591.94	3732.12
592.27	3726.19
592.61	3719.37
592.95	3730.04
593.29	3736.52
593.62	3739.20
593.96	3734.89
594.30	3753.74
594.64	3751.27
594.97	3758.98
595.31	3748.13
595.65	3745.71
595.98	3745.74
596.32	3742.50
596.66	3756.66
597.00	3761.75
597.33	3767.63
597.67	3740.15
598.01	3766.18
598.34	3764.67
598.68	3754.20
599.02	3748.16
599.35	3744.75
599.69	3764.20
600.03	3760.28
600.36	3753.26
600.70	3765.94
601.03	3757.87
601.37	3774.53
601.71	3771.19
602.04	3760.61
602.38	3747.10
602.72	3761.02
603.05	3771.94
603.39	3755.53
603.72	3759.80
604.06	3756.94
604.40	3762.07
604.73	3739.25
605.07	3762.79
605.40	3749.77
605.74	3751.32
606.08	3735.63
606.41	3736.35
606.75	3754.00
607.08	3734.46
607.42	3736.57
607.75	3738.34
608.09	3727.76
608.42	3732.59
608.76	3713.38
609.10	3731.94
609.43	3708.99
609.77	3697.21
610.10	3703.37
610.44	3695.75
610.77	3683.03
611.11	3690.04
611.44	3676.77
611.78	3670.82
612.11	3661.20
612.45	3658.12
612.78	3645.49
613.12	3645.07
613.45	3638.05
613.79	3611.10
614.12	3610.01
614.46	3603.81
614.79	3596.43
615.13	3589.53
615.46	3584.58
615.79	3576.70
616.13	3560.99
616.46	3548.98
616.80	3555.79
617.13	3541.76
617.47	3527.64
617.80	3522.85
618.13	3537.15
618.47	3516.04
618.80	3513.38
619.14	3499.73
619.47	3494.44
619.81	3502.10
620.14	3496.69
620.47	3495.94
620.81	3485.79
621.14	3487.23
621.47	3483.47
621.81	3493.89
622.14	3484.86
622.48	3474.16
622.81	3480.83
623.14	3491.83
623.48	3478.91
623.81	3476.32
624.14	3482.43
624.48	3475.83
624.81	3472.97
625.14	3469.64
625.48	3476.94
625.81	3470.19
626.14	3488.54
626.48	3479.01
626.81	3499.80
627.14	3476.07
627.48	3470.22
627.81	3471.99
628.14	3489.16
628.47	3500.18
628.81	3513.09
629.14	3506.08
629.47	3524.46
629.81	3527.77
630.14	3517.32
630.47	3504.87
630.80	3528.03
631.14	3533.38
631.47	3538.53
631.80	3531.83
632.13	3544.77
632.47	3540.10
632.80	3555.16
633.13	3553.89
633.46	3550.64
633.79	3558.52
634.13	3564.98
634.46	3562.91
634.79	3573.44
635.12	3570.74
635.45	3583.72
635.79	3584.86
636.12	3587.72
636.45	3586.56
636.78	3574.82
637.11	3596.12
637.45	3590.02
637.78	3591.56
638.11	3592.83
638.44	3594.53
638.77	3606.09
639.10	3603.03
639.44	3589.71
639.77	3599.09
640.10	3605.75
640.43	3592.85
640.76	3608.18
641.09	3600.55
641.42	3598.22
641.75	3598.42
642.08	3602.52
642.42	3598.00
642.75	3594.98
643.08	3607.53
643.41	3598.04
643.74	3603.02
644.07	3593.27
644.40	3590.04
644.73	3580.47
645.06	3585.96
645.39	3593.38
645.72	3589.46
646.05	3567.66
646.38	3579.71
646.72	3582.76
647.05	3565.22
647.38	3578.49
647.71	3566.43
648.04	3570.32
648.37	3561.83
648.70	3542.39
649.03	3559.78
649.36	3555.74
649.69	3545.63
650.02	3552.07
650.35	3549.60
650.68	3549.05
651.01	3528.20
651.34	3539.20
651.67	3516.72
652.00	3539.61
652.33	3505.70
652.66	3517.94
652.99	3505.10
653.31	3520.25
653.64	3498.08
653.97	3491.73
654.30	3507.32
654.63	3476.72
654.96	3465.59
655.29	3487.50
655.62	3467.55
655.95	3475.59
656.28	3470.46
656.61	3457.81
656.94	3459.54
657.27	3450.51
657.60	3437.92
657.92	3442.65
658.25	3432.42
658.58	3425.28
658.91	3420.97
659.24	3410.91
659.57	3406.45
659.90	3400.23
660.23	3390.43
660.55	3392.41
660.88	3392.33
661.21	3370.04
661.54	3373.76
661.87	3372.87
662.20	3359.00
662.52	3361.23
662.85	3365.85
663.18	3330.41
663.51	3332.28
663.84	3309.31
664.16	3288.04
664.49	3322.18
664.82	3299.94
665.15	3320.72
665.48	3304.63
665.80	3292.84
666.13	3287.44
666.46	3284.90
666.79	3264.30
667.12	3263.39
667.44	3260.79
667.77	3260.17
668.10	3246.13
668.43	3241.44
668.75	3230.92
669.08	3232.95
669.41	3222.81
669.73	3219.08
670.06	3209.44
670.39	3203.70
670.72	3205.27
671.04	3191.09
671.37	3192.45
671.70	3180.12
672.02	3182.40
672.35	3177.78
672.68	3159.55
673.00	3155.39
673.33	3159.43
673.66	3144.08
673.98	3136.86
674.31	3128.28
674.64	3112.94
674.96	3110.72
675.29	3104.19
675.62	3092.06
675.94	3086.83
676.27	3087.17
676.60	3074.06
676.92	3074.92
677.25	3074.32
677.58	3055.94
677.90	3048.97
678.23	3050.05
678.55	3045.70
678.88	3029.92
679.21	3024.49
679.53	3021.10
679.86	3010.94
680.18	3019.16
680.51	2994.26
680.83	2997.20
681.16	2974.98
681.49	2978.12
681.81	2963.69
682.14	2970.83
682.46	2963.23
682.79	2941.90
683.11	2946.69
683.44	2913.63
683.76	2934.32
684.09	2925.39
684.41	2910.64
684.74	2896.54
685.06	2890.63
685.39	2888.99
685.71	2878.74
686.04	2883.59
686.36	2872.75
686.69	2871.77
687.01	2840.06
687.34	2849.75
687.66	2836.31
687.99	2830.46
688.31	2816.68
688.64	2824.09
688.96	2805.58
689.29	2802.34
689.61	2796.50
689.93	2784.65
690.26	2778.85
690.58	2778.58
690.91	2757.59
691.23	2760.70
691.56	2755.47
691.88	2746.84
692.20	2735.22
692.53	2731.95
692.85	2720.69
693.18	2726.06
693.50	2699.03
693.82	2691.92
694.15	2687.38
694.47	2680.42
694.79	2658.16
695.12	2651.99
695.44	2640.82
695.76	2633.15
696.09	2629.61
696.41	2620.08
696.73	2617.84
697.06	2618.72
697.38	2586.55
697.70	2591.78
698.03	2575.02
698.35	2564.56
698.67	2553.56
699.00	2541.47
699.32	2534.22
699.64	2527.61
699.97	2507.96
700.29	2503.68
700.61	2497.51
700.93	2487.50
701.26	2471.94
701.58	2458.50
701.90	2463.73
702.22	2437.74
702.55	2432.21
702.87	2417.44
703.19	2414.71
703.51	2400.16
703.84	2391.86
704.16	2366.61
704.48	2372.99
704.80	2346.78
705.13	2350.58
705.45	2329.71
705.77	2329.15
706.09	2314.97
706.41	2303.04
706.74	2285.72
707.06	2275.80
707.38	2260.33
707.70	2253.32
708.02	2228.50
708.34	2224.61
708.67	2212.52
708.99	2204.56
709.31	2178.14
709.63	2174.92
709.95	2156.03
710.27	2147.81
710.59	2135.26
710.92	2121.14
711.24	2105.61
711.56	2095.05
711.88	2074.16
712.20	2058.27
712.52	2052.59
712.84	2033.16
713.16	2017.92
713.48	1999.08
713.80	1989.76
714.12	1962.44
714.45	1961.40
714.77	1932.25
715.09	1908.21
715.41	1902.91
715.73	1877.96
716.05	1865.12
716.37	1842.29
716.69	1822.16
717.01	1801.72
717.33	1783.79
717.65	1763.02
717.97	1744.70
718.29	1725.09
718.61	1699.97
718.93	1691.75
719.25	1655.60
719.57	1644.51
719.89	1625.81
720.21	1604.12
720.53	1581.05
720.85	1563.66
721.17	1533.97
721.49	1513.51
721.81	1490.77
722.13	1471.01
722.45	1446.57
722.77	1427.05
723.09	1406.76
723.41	1389.72
723.72	1361.69
724.04	1348.38
724.36	1327.13
724.68	1314.60
725.00	1298.91
725.32	1271.81
725.64	1262.29
725.96	1237.45
726.28	1224.75
726.60	1211.18
726.91	1195.01
727.23	1177.69
727.55	1169.32
727.87	1157.25
728.19	1138.21
728.51	1130.72
728.83	1118.21
729.14	1103.27
729.46	1094.71
729.78	1083.92
730.10	1071.82
730.42	1067.62
730.74	1053.80
731.05	1048.47
731.37	1039.91
731.69	1039.15
732.01	1030.30
732.33	1024.37
732.64	1017.90
732.96	1012.70
733.28	1011.87
733.60	1007.04
733.92	1004.99
734.23	1005.65
734.55	1006.57
734.87	1000.66
735.19	999.55
735.50	999.68
735.82	996.41
736.14	996.90
736.45	998.77
736.77	999.95
737.09	996.71
737.41	994.33
737.72	999.58
738.04	1005.12
738.36	1004.62
738.67	1008.73
738.99	1007.47
739.31	1007.93
739.63	1013.39
739.94	1016.29
740.26	1022.81
740.58	1026.58
740.89	1034.48
741.21	1032.64
741.52	1041.76
741.84	1047.48
742.16	1051.81
742.47	1058.48
742.79	1065.37
743.11	1072.74
743.42	1082.58
743.74	1092.48
744.05	1092.68
744.37	1099.93
744.69	1106.51
745.00	1108.48
745.32	1121.09
745.63	1126.35
745.95	1129.85
746.27	1137.90
746.58	1142.53
746.90	1149.95
747.21	1157.98
747.53	1168.80
747.84	1164.09
748.16	1170.51
748.47	1177.85
748.79	1187.46
749.10	1194.15
749.42	1196.16
749.74	1200.86
750.05	1212.21
750.37	1215.67
750.68	1216.69
751.00	1227.65
751.31	1239.13
751.62	1237.24
751.94	1252.28
752.25	1256.79
752.57	1272.03
752.88	1271.36
753.20	1283.11
753.51	1284.57
753.83	1292.28
754.14	1302.24
754.46	1307.31
754.77	1310.57
755.08	1322.31
755.40	1331.66
755.71	1335.46
756.03	1342.55
756.34	1354.58
756.66	1358.51
756.97	1364.57
757.28	1375.16
757.60	1371.63
757.91	1380.38
758.22	1385.45
758.54	1393.55
758.85	1400.71
759.17	1401.25
759.48	1410.71
759.79	1411.76
760.11	1409.77
760.42	1424.56
760.73	1420.77
761.05	1434.41
761.36	1434.38
761.67	1440.67
761.99	1449.18
762.30	1454.73
762.61	1453.63
762.92	1460.70
763.24	1459.96
763.55	1463.78
763.86	1467.05
764.18	1477.25
764.49	1476.31
764.80	1473.18
765.11	1486.98
765.43	1475.00
765.74	1484.06
766.05	1493.34
766.36	1486.13
766.68	1489.56
766.99	1498.86
767.30	1490.65
767.61	1487.39
767.93	1488.52
768.24	1493.82
768.55	1495.18
768.86	1494.66
769.17	1490.27
769.49	1491.22
769.80	1493.43
770.11	1487.30
770.42	1487.99
770.73	1482.72
771.04	1483.92
771.36	1476.29
771.67	1478.16
771.98	1480.85
772.29	1467.08
772.60	1470.10
772.91	1464.56
773.22	1461.09
773.54	1463.54
773.85	1459.84
774.16	1449.25
774.47	1446.35
774.78	1447.10
775.09	1434.54
775.40	1430.82
775.71	1430.63
776.02	1430.96
776.33	1418.89
776.64	1411.79
776.96	1412.29
777.27	1402.81
777.58	1396.45
777.89	1390.42
778.20	1381.20
778.51	1379.79
778.82	1368.11
779.13	1360.87
779.44	1361.33
779.75	1348.21
780.06	1338.92
780.37	1336.19
780.68	1327.18
780.99	1320.94
781.30	1315.15
781.61	1305.76
781.92	1303.57
782.23	1296.59
782.54	1286.47
782.85	1276.42
783.16	1262.23
783.47	1262.60
783.78	1252.68
784.08	1249.21
784.39	1236.56
784.70	1231.98
785.01	1219.47
785.32	1219.39
785.63	1203.43
785.94	1196.54
786.25	1188.51
786.56	1179.49
786.87	1172.28
787.18	1162.97
787.48	1151.46
787.79	1142.17
788.10	1133.16
788.41	1123.65
788.72	1117.10
789.03	1105.72
789.34	1093.01
789.64	1084.75
789.95	1080.94
790.26	1069.74
790.57	1057.35
790.88	1054.50
791.19	1040.72
791.49	1028.59
791.80	1018.72
792.11	1014.57
792.42	1009.29
792.73	991.73
793.03	988.08
793.34	978.86
793.65	968.13
793.96	962.86
794.27	955.99
794.57	945.31
794.88	937.47
795.19	929.42
795.50	921.35
795.80	915.38
796.11	907.34
796.42	905.11
796.72	890.05
797.03	885.51
797.34	876.89
797.65	872.70
797.95	866.42
798.26	858.92
798.57	853.36
798.87	844.45
799.18	842.00
799.49	835.11
799.79	826.12
800.10	821.61
800.41	815.07
800.71	801.61
801.02	803.40
801.33	791.60
801.63	789.82
801.94	783.42
802.24	777.87
802.55	771.18
802.86	765.13
803.16	761.12
803.47	755.99
803.77	752.54
804.08	743.81
804.39	739.11
804.69	731.77
805.00	726.33
805.30	725.62
805.61	712.38
805.91	709.50
806.22	707.82
806.53	702.99
806.83	693.79
807.14	690.10
807.44	680.74
807.75	676.95
808.05	674.01
808.36	670.93
808.66	665.67
808.97	657.41
809.27	653.33
809.58	647.45
809.88	646.12
810.19	644.93
810.49	636.01
810.80	630.37
811.10	624.90
811.41	617.61
811.71	615.92
812.01	611.09
812.32	605.14
812.62	600.99
812.93	597.22
813.23	590.88
813.54	582.56
813.84	581.21
814.14	574.86
814.45	570.28
814.75	563.66
815.06	561.80
815.36	556.40
815.66	551.53
815.97	543.61
816.27	544.31
816.58	537.47
816.88	536.72
817.18	529.81
817.49	525.14
817.79	520.66
818.09	516.93
818.40	514.95
818.70	508.04
819.00	504.00
819.31	501.11
819.61	497.96
819.91	492.78
820.21	488.98
820.52	482.15
820.82	478.34
821.12	476.53
821.43	472.65
821.73	468.38
822.03	463.95
822.33	459.99
822.64	457.10
822.94	453.32
823.24	448.35
823.54	443.99
823.85	440.48
824.15	437.05
824.45	433.97
824.75	427.83
825.05	427.11
825.36	421.56
825.66	418.32
825.96	413.88
826.26	411.60
826.56	407.24
826.87	403.09
827.17	398.65
827.47	395.80
827.77	391.70
828.07	388.47
828.37	385.41
828.67	382.02
828.98	378.22
829.28	375.10
829.58	372.05
829.88	367.76
830.18	365.27
830.48	362.79
830.78	358.68
831.08	356.04
831.38	351.60
831.69	348.47
831.99	345.06
832.29	342.57
832.59	339.85
832.89	335.33
833.19	333.13
833.49	330.11
833.79	326.88
834.09	325.09
834.39	320.51
834.69	317.63
834.99	314.33
835.29	310.41
835.59	308.67
835.89	305.58
836.19	302.37
836.49	299.47
836.79	296.10
837.09	294.06
837.39	291.07
837.69	289.11
837.99	286.52
838.29	283.62
838.59	282.35
838.89	279.94
839.19	277.19
839.49	275.07
839.79	273.06
840.09	270.43
840.39	268.96
840.68	266.78
840.98	265.18
841.28	262.19
841.58	260.43
841.88	259.18
842.18	257.26
842.48	255.77
842.78	254.19
843.08	252.70
843.37	250.51
843.67	249.43
843.97	247.18
844.27	245.73
844.57	243.63
844.87	242.57
845.16	240.88
845.46	238.86
845.76	237.31
846.06	235.42
846.36	234.55
846.66	232.95
846.95	231.58
847.25	230.19
847.55	228.38
847.85	227.93
848.14	226.21
848.44	224.92
848.74	223.95
849.04	223.07
849.33	221.10
849.63	220.48
849.93	219.53
850.23	218.17
850.52	217.04
850.82	216.27
851.12	214.69
851.42	214.58
851.71	214.06
852.01	212.89
852.31	212.49
852.60	211.68
852.90	211.27
853.20	210.23
853.49	209.29
853.79	208.92
854.09	208.47
854.38	207.41
854.68	206.66
854.98	205.62
855.27	205.77
855.57	205.35
855.86	205.56
856.16	204.94
856.46	204.34
856.75	203.63
857.05	203.40
857.34	203.33
857.64	203.18
857.94	203.87
858.23	202.71
858.53	203.42
858.82	202.33
859.12	202.24
859.41	202.04
859.71	202.40
860.01	202.03
860.30	202.21
860.60	201.51
860.89	203.46
861.19	201.67
861.48	202.18
861.78	202.07
862.07	201.37
862.37	201.52
862.66	202.49
862.96	201.55
863.25	201.91
863.55	201.01
863.84	201.51
864.13	201.25
864.43	201.19
864.72	202.03
865.02	201.19
865.31	201.16
865.61	201.10
865.90	200.89
866.19	201.74
866.49	201.76
866.78	201.40
867.08	201.11
867.37	201.09
867.66	201.42
867.96	201.62
868.25	202.17
868.55	201.12
868.84	201.11
869.13	201.54
869.43	201.21
869.72	201.95
870.01	200.91
870.31	201.27
870.60	200.53
870.89	200.45
871.19	201.04
871.48	200.36
871.77	200.96
872.07	200.61
872.36	200.74
872.65	200.68
872.94	200.42
873.24	200.33
873.53	200.20
873.82	199.92
874.11	200.47
874.41	199.98
874.70	199.76
>>>>>End Processed Spectral Data<<<<<
